File: trimer_offset/TGA.1Mb.txt
15057
18821
17552
18078
19921
19020
18910
18537
19198
18359
18761
18132
19802
18442
19312
18738
19005
18586
19119
20313
18861
18601
19732
20357
20088
19647
19351
20015
19854
20664
20340
20564
19786
19963
20783
20014
20203
19473
20238
19899
19234
19648
20479
20064
19642
20692
20037
19095
19772
18941
19623
19495
19544
18695
20455
18151
19722
19190
18684
20138
19623
19473
19394
19790
19293
20006
19723
19414
20212
20301
20609
20391
19963
19930
20873
19874
19382
19624
18741
18844
20129
19501
18737
20308
20641
19794
20150
20247
19252
18800
19163
19272
19878
20440
19754
19152
18661
18319
20205
20155
18876
19160
20530
19503
20562
18112
18882
18373
18671
20146
19184
20409
20087
19907
19232
19809
18544
18833
19082
19922
20068
19597
20934
20028
18804
19612
19448
20468
19430
18673
18817
19291
20162
19528
20805
20189
19799
19099
19196
19122
19144
20594
19454
20174
19284
19253
19944
19985
19200
19306
20072
20325
18574
19066
19783
19627
20656
20574
20366
20627
19891
19781
20359
20528
19355
19263
20034
19508
20306
19973
19522
20088
18806
19834
20045
20459
19585
20057
20068
20360
19553
20140
19731
19349
20033
19571
19417
20807
20284
20076
20439
19842
20070
19452
18214
20589
19793
19997
19907
20498
18383
19553
19176
16432
20292
19799
20760
20667
18311
19093
18191
19139
19595
20155
20027
19847
20626
20348
20253
19094
20807
19732
19307
19608
19335
19285
18899
17951
18214
17421
20656
18866
19563
19556
20571
19618
20400
19986
19012
20441
21170
20434
19778
20459
19890
20160
19926
19907
19796
20454
19970
19718
19738
19848
19595
19565
20206
19003
19796
19115
19677
17771
18050
20479
20101
19554
19863
19297
19676
19407
20548
19730
19319
19935
20187
19989
19808
20993
20700
19592
20028
19485
19243
19540
20549
20505
20348
20151
20063
18869
19261
20011
20373
20428
19646
18102
19334
18484
20956
19718
19734
19395
20248
20237
19568
19730
20288
20042
19969
19710
19003
20134
20060
20099
19779
19751
20986
19875
20037
20248
20302
20798
19974
20771
19935
18944
19706
19532
19749
20727
20296
20612
20468
19904
20159
19306
19600
20123
19953
20285
19686
20518
20161
20023
20032
20219
20255
19746
20093
20075
19569
20129
19934
19607
19230
19461
19655
20253
20058
18970
19341
20128
20165
20917
20127
19482
20062
19678
20633
20409
20261
20267
20380
20459
19781
19078
19587
20003
18880
20106
19699
20473
19396
20171
19909
19190
20095
20292
19976
20069
19956
20156
19635
19937
19773
20274
20159
20108
20498
19754
19039
20590
20030
20047
20474
19196
20993
18691
19562
19939
20264
19108
19592
20326
20335
20057
20551
20362
19471
20444
20069
20212
20087
19638
20398
19351
20454
19798
19883
20787
19970
20422
20346
20257
19270
19052
20420
18258
19153
19769
20310
19961
19447
19309
20230
20403
19987
19726
20545
20589
20203
19607
20290
18952
20006
17763
17822
18763
18792
20064
19530
20133
19855
19319
19647
19007
19480
19636
20049
20123
18873
20160
18228
17761
18578
19185
19649
17679
18441
19869
20403
20068
20303
20049
19563
20347
20185
19863
19785
19447
20710
20140
20415
20350
20062
19924
19926
20188
19877
19373
20715
20244
19926
19046
20230
19645
19513
19556
19649
19316
20089
20164
19589
20020
19647
20384
19934
19584
20376
19570
19754
19796
19811
19939
19977
20508
20091
19676
20159
19231
19468
19600
19559
20157
19909
19371
16462
17918
18358
20836
19342
19564
20246
19960
20839
19509
19250
19825
19441
19791
19036
19210
20404
19927
19723
20783
19539
20279
20739
19898
20286
19089
19900
20243
19617
18424
18082
20268
20116
20049
20004
19664
20935
20490
20065
20054
19976
18901
17832
19651
19617
19459
20116
18953
19799
20080
20267
20142
19749
20131
20633
19173
18734
19089
19545
20247
19100
20227
20412
18774
17454
19570
18044
18136
19796
20270
20247
19205
19144
20566
20241
19411
19468
18305
19847
19829
19447
19559
19985
20854
18186
20157
18283
19853
20457
19654
20170
20517
20144
20213
20503
19676
20380
19805
19262
20246
19992
19591
20129
20866
20178
19642
20329
19765
20205
19502
19141
18801
20654
20207
19869
20517
20021
20093
19641
19776
20305
19747
19272
20191
20722
19988
20364
19868
20909
19973
18348
15276
19635
19151
20879
20395
20168
19872
19687
20590
19640
20019
19177
19734
20099
20095
19927
18545
18740
19670
20019
20225
19913
20916
20009
19765
20258
20257
19231
18517
19261
19036
19264
19339
20747
20074
20368
20270
19982
19237
19336
20650
20799
20213
18603
18769
19589
17758
18006
18011
16091
19445
19596
19185
19312
20040
19155
19372
19605
20728
19148
20259
20086
19363
19401
19346
19300
20646
19894
18703
20837
20108
20059
19644
19662
19998
19917
20015
18882
18660
17571
19008
20424
18786
18928
20396
19636
19101
20167
20110
19157
19571
19502
18758
19057
18227
18778
20207
20229
19617
20114
19569
20106
19557
19309
18566
18007
19385
18665
16434
18612
19965
18024
19726
19913
20040
18770
20285
21198
20339
20351
19609
20319
19341
19589
20070
20586
19440
20142
19972
18643
18561
19813
20196
18548
18402
16926
17981
18349
19146
19640
18725
19944
20055
19266
19661
20183
20543
20486
19772
19799
20565
19886
20472
20016
20433
19818
20253
19307
18150
18078
19476
19998
18894
20480
19092
19989
18593
18963
19495
17470
19708
19933
20045
19790
20400
20268
19442
19879
19738
20531
19607
19922
19614
19270
20288
19550
18520
18697
18624
17843
17846
20087
20202
19713
19635
20154
19725
20137
20613
20096
19157
20609
20039
19714
20156
20005
19740
20379
20088
19541
19555
19766
19476
20287
19678
20007
19671
18768
18772
19657
18972
20355
18711
18540
20881
19878
19051
18877
19316
19218
19446
20380
19487
19958
20351
20133
20140
18908
20073
18700
20409
19792
19555
20420
19965
20379
19430
20193
20418
20120
20494
20058
19685
19788
20609
20463
20184
20027
19947
20017
20207
19792
20363
19711
20497
19120
19895
20615
20340
20123
20861
18019
18825
18068
20365
20444
19912
19116
19044
19676
20420
21106
20154
19334
20656
20098
18902
19217
19394
20676
19549
19382
20610
19727
19655
20104
19694
20247
18930
19745
19987
19974
20751
20511
20476
19172
18992
19934
19227
20677
18151
18317
17791
19178
20695
19682
19279
19053
18983
20337
19749
18235
18914
19334
20346
19601
19210
19231
20398
19425
19176
19078
19129
18691
18774
19316
18371
18805
17668
19067
18193
19430
18613
20559
18469
19641
19172
20329
20479
19585
18511
16021
17283
20380
20161
18205
19938
18889
19576
19635
19703
19108
20003
18807
18620
19282
18058
20273
19959
19362
17819
20609
20400
20581
20140
17794
18913
18979
19125
18889
19744
19579
18794
20003
16963
17637
17152
18511
19727
17211
18706
19527
20095
18947
17645
19315
17995
19133
19569
17821
18679
17614
17939
19059
17936
20165
19919
19424
19354
19402
19134
19678
19747
19976
18615
17402
17916
17617
3505
19767
19534
20302
19809
19294
19907
19758
19252
19500
19976
19923
19303
20138
19615
20260
20656
20491
20372
19291
18924
20571
20151
19469
20078
19155
20487
20337
20292
19534
20243
19728
18903
19533
18263
19632
20353
20156
20381
19242
20798
19062
20049
19716
19249
18671
18858
18702
19096
20313
20007
19088
18611
19327
18773
18999
19501
19469
18856
19435
14461
16157
17184
19570
18131
17565
18355
17363
18030
18981
18863
17962
18777
17644
18282
21376
18065
18203
17631
20126
17763
19092
18838
17151
19272
18017
19756
18412
18596
19250
19794
18160
17608
19118
18095
18148
17626
18879
19263
20477
20080
20396
20004
19793
20168
20624
19170
19772
19002
20150
19959
18177
20315
20162
18678
20133
20462
19702
19386
20327
20068
19913
20157
20360
19832
20016
20168
20147
18352
19802
20111
20034
19246
19645
19229
19554
19654
20091
19130
18866
19459
19893
19980
19635
19631
20039
19702
19754
19982
19946
19785
20637
20242
19377
19675
20696
19306
19997
20251
19682
19370
19679
20198
20043
19126
19823
19594
19481
20187
19512
20114
20346
20202
21154
19701
19725